" File: Monday\spectrum.SSM
" SCOPE->  Wave:902.92nm  Pix:1050  Val:6878.215  Time:3000ms  Avg:1  Sm:1  Sg:0  Tc:off  SNAP  Xt:3  Ch:1  Xtrig
 795.00  1.2332E+003
 795.25  1.4120E+003
 795.50  1.5908E+003
 795.75  1.6977E+003
 796.00  1.9119E+003
 796.25  2.0252E+003
 796.50  2.0706E+003
 796.75  2.0585E+003
 797.00  1.9772E+003
 797.25  1.8394E+003
 797.50  1.7039E+003
 797.75  1.7414E+003
 798.00  2.1023E+003
 798.25  2.6182E+003
 798.50  3.1791E+003
 798.75  3.8338E+003
 799.00  4.3261E+003
 799.25  4.4997E+003
 799.50  4.6003E+003
 799.75  4.7632E+003
 800.00  4.8519E+003
 800.25  4.8704E+003
 800.50  4.8953E+003
 800.75  4.8564E+003
 801.00  4.6617E+003
 801.25  4.4137E+003
 801.50  4.4103E+003
 801.75  4.4599E+003
 802.00  4.4193E+003
 802.25  4.5338E+003
 802.50  4.8060E+003
 802.75  5.0258E+003
 803.00  5.2591E+003
 803.25  5.8742E+003
 803.50  6.9746E+003
 803.75  7.8754E+003
 804.00  7.8088E+003
 804.25  7.1363E+003
 804.50  6.7016E+003
 804.75  6.8397E+003
 805.00  7.5016E+003
 805.25  7.8535E+003
 805.50  7.2535E+003
 805.75  6.2727E+003
 806.00  5.5614E+003
 806.25  5.2021E+003
 806.50  4.9946E+003
 806.75  4.8912E+003
 807.00  4.9634E+003
 807.25  4.9882E+003
 807.50  4.9990E+003
 807.75  5.0829E+003
 808.00  5.0392E+003
 808.25  4.9232E+003
 808.50  4.8416E+003
 808.75  4.6150E+003
 809.00  4.3915E+003
 809.25  4.2988E+003
 809.50  4.3760E+003
 809.75  4.4367E+003
 810.00  4.4991E+003
 810.25  4.6038E+003
 810.50  4.6876E+003
 810.75  4.8273E+003
 811.00  4.9298E+003
 811.25  4.8505E+003
 811.50  4.8056E+003
 811.75  4.7860E+003
 812.00  4.7663E+003
 812.25  4.8500E+003
 812.50  4.8460E+003
 812.75  4.7625E+003
 813.00  4.6846E+003
 813.25  4.6411E+003
 813.50  4.6983E+003
 813.75  4.8268E+003
 814.00  4.9795E+003
 814.25  5.2020E+003
 814.50  5.3631E+003
 814.75  5.3454E+003
 815.00  5.2778E+003
 815.25  5.2339E+003
 815.50  5.2501E+003
 815.75  5.3928E+003
 816.00  6.0789E+003
 816.25  7.4779E+003
 816.50  8.1942E+003
 816.75  7.5422E+003
 817.00  6.5634E+003
 817.25  6.1180E+003
 817.50  6.6450E+003
 817.75  8.2538E+003
 818.00  9.8639E+003
 818.25  9.9926E+003
 818.50  8.8827E+003
 818.75  7.8225E+003
 819.00  7.6614E+003
 819.25  7.7247E+003
 819.50  7.0100E+003
 819.75  5.8678E+003
 820.00  4.9806E+003
 820.25  4.8804E+003
 820.50  6.2198E+003
 820.75  7.7104E+003
 821.00  7.7491E+003
 821.25  6.7977E+003
 821.50  5.8844E+003
 821.75  5.2104E+003
 822.00  4.8010E+003
 822.25  4.6144E+003
 822.50  4.3999E+003
 822.75  4.1301E+003
 823.00  4.1454E+003
 823.25  4.2552E+003
 823.50  4.1919E+003
 823.75  4.0738E+003
 824.00  4.0863E+003
 824.25  4.1009E+003
 824.50  4.0717E+003
 824.75  4.0476E+003
 825.00  4.1159E+003
 825.25  4.3744E+003
 825.50  4.5784E+003
 825.75  4.5209E+003
 826.00  4.3537E+003
 826.25  4.3146E+003
 826.50  4.3308E+003
 826.75  4.2686E+003
 827.00  4.1612E+003
 827.25  4.1251E+003
 827.50  4.1253E+003
 827.75  4.0521E+003
 828.00  4.0625E+003
 828.25  4.2488E+003
 828.50  4.4862E+003
 828.75  4.6255E+003
 829.00  4.6551E+003
 829.25  4.7594E+003
 829.50  5.1619E+003
 829.75  6.1345E+003
 830.00  8.7836E+003
 830.25  1.4035E+004
 830.50  1.8794E+004
 830.75  1.8779E+004
 831.00  1.5191E+004
 831.25  1.1168E+004
 831.50  8.0756E+003
 831.75  6.2064E+003
 832.00  5.3089E+003
 832.25  4.7906E+003
 832.50  4.5737E+003
 832.75  4.4281E+003
 833.00  4.2563E+003
 833.25  4.1137E+003
 833.50  3.9196E+003
 833.75  3.8119E+003
 834.00  3.8509E+003
 834.25  4.0718E+003
 834.50  4.3777E+003
 834.75  4.3964E+003
 835.00  4.2647E+003
 835.25  4.2440E+003
 835.50  4.1407E+003
 835.75  4.0498E+003
 836.00  4.1090E+003
 836.25  4.1953E+003
 836.50  4.2404E+003
 836.75  4.1581E+003
 837.00  4.0331E+003
 837.25  4.0905E+003
 837.50  4.1826E+003
 837.75  4.0960E+003
 838.00  3.9492E+003
 838.25  3.9316E+003
 838.50  3.9974E+003
 838.75  4.0622E+003
 839.00  4.1491E+003
 839.25  4.2341E+003
 839.50  4.3003E+003
 839.75  4.4487E+003
 840.00  4.6772E+003
 840.25  4.8762E+003
 840.50  5.1679E+003
 840.75  5.5017E+003
 841.00  5.4849E+003
 841.25  5.1097E+003
 841.50  4.6447E+003
 841.75  4.2054E+003
 842.00  3.8956E+003
 842.25  3.7915E+003
 842.50  3.7017E+003
 842.75  3.5892E+003
 843.00  3.6133E+003
 843.25  3.7184E+003
 843.50  3.7627E+003
 843.75  3.8311E+003
 844.00  3.9797E+003
 844.25  3.9280E+003
 844.50  3.7532E+003
 844.75  3.6937E+003
 845.00  3.7249E+003
 845.25  3.6685E+003
 845.50  3.5836E+003
 845.75  3.5688E+003
 846.00  3.5065E+003
 846.25  3.4335E+003
 846.50  3.4655E+003
 846.75  3.4738E+003
 847.00  3.4906E+003
 847.25  3.6589E+003
 847.50  3.8549E+003
 847.75  4.0371E+003
 848.00  4.2318E+003
 848.25  4.3673E+003
 848.50  4.2272E+003
 848.75  3.9823E+003
 849.00  3.7821E+003
 849.25  3.6050E+003
 849.50  3.4935E+003
 849.75  3.5300E+003
 850.00  3.6259E+003
 850.25  3.6715E+003
 850.50  3.7481E+003
 850.75  3.7614E+003
 851.00  3.8524E+003
 851.25  4.0606E+003
 851.50  4.1267E+003
 851.75  4.0972E+003
 852.00  4.1026E+003
 852.25  4.2067E+003
 852.50  4.3591E+003
 852.75  4.4832E+003
 853.00  4.8285E+003
 853.25  5.4685E+003
 853.50  6.2424E+003
 853.75  6.7936E+003
 854.00  6.8633E+003
 854.25  6.4612E+003
 854.50  5.9871E+003
 854.75  5.5325E+003
 855.00  5.1094E+003
 855.25  4.8609E+003
 855.50  4.8110E+003
 855.75  4.7903E+003
 856.00  4.7384E+003
 856.25  4.9180E+003
 856.50  5.4700E+003
 856.75  6.2798E+003
 857.00  7.0625E+003
 857.25  7.8122E+003
 857.50  8.2753E+003
 857.75  7.9821E+003
 858.00  7.1471E+003
 858.25  6.2902E+003
 858.50  5.6341E+003
 858.75  5.2498E+003
 859.00  4.8914E+003
 859.25  4.5782E+003
 859.50  4.4098E+003
 859.75  4.3785E+003
 860.00  4.3739E+003
 860.25  4.1877E+003
 860.50  4.0017E+003
 860.75  3.9623E+003
 861.00  4.1193E+003
 861.25  4.1906E+003
 861.50  4.1669E+003
 861.75  4.2979E+003
 862.00  4.4534E+003
 862.25  4.5611E+003
 862.50  4.6186E+003
 862.75  4.5614E+003
 863.00  4.4079E+003
 863.25  4.3498E+003
 863.50  4.3814E+003
 863.75  4.3542E+003
 864.00  4.2710E+003
 864.25  4.1598E+003
 864.50  4.1585E+003
 864.75  4.3577E+003
 865.00  4.6137E+003
 865.25  4.7117E+003
 865.50  4.6660E+003
 865.75  4.7139E+003
 866.00  4.9141E+003
 866.25  5.0474E+003
 866.50  5.1012E+003
 866.75  5.0767E+003
 867.00  4.9983E+003
 867.25  4.9111E+003
 867.50  4.7616E+003
 867.75  4.5932E+003
 868.00  4.5413E+003
 868.25  4.6661E+003
 868.50  4.9713E+003
 868.75  5.2078E+003
 869.00  5.2551E+003
 869.25  5.2665E+003
 869.50  5.3516E+003
 869.75  5.5949E+003
 870.00  6.0693E+003
 870.25  6.5660E+003
 870.50  6.8726E+003
 870.75  6.8336E+003
 871.00  6.4609E+003
 871.25  6.1222E+003
 871.50  6.0340E+003
 871.75  6.1562E+003
 872.00  6.2848E+003
 872.25  6.4185E+003
 872.50  6.5670E+003
 872.75  6.6212E+003
 873.00  6.6333E+003
 873.25  6.6918E+003
 873.50  6.7116E+003
 873.75  6.7398E+003
 874.00  6.8277E+003
 874.25  6.8532E+003
 874.50  6.7054E+003
 874.75  6.5860E+003
 875.00  6.7033E+003
 875.25  6.7538E+003
 875.50  6.7582E+003
 875.75  7.0192E+003
 876.00  7.2876E+003
 876.25  7.4322E+003
 876.50  7.5115E+003
 876.75  7.5088E+003
 877.00  7.5358E+003
 877.25  7.6268E+003
 877.50  7.8396E+003
 877.75  7.8762E+003
 878.00  7.7374E+003
 878.25  7.7091E+003
 878.50  7.7669E+003
 878.75  8.1243E+003
 879.00  8.9123E+003
 879.25  9.4387E+003
 879.50  9.4422E+003
 879.75  9.2234E+003
 880.00  8.9379E+003
 880.25  8.7153E+003
 880.50  8.5657E+003
 880.75  8.3618E+003
 881.00  8.1174E+003
 881.25  8.0756E+003
 881.50  8.1642E+003
 881.75  8.2293E+003
 882.00  8.0059E+003
 882.25  7.6824E+003
 882.50  7.6573E+003
 882.75  7.7042E+003
 883.00  7.6745E+003
 883.25  7.5905E+003
 883.50  7.5651E+003
 883.75  7.5827E+003
 884.00  7.6741E+003
 884.25  7.7582E+003
 884.50  7.7388E+003
 884.75  7.7585E+003
 885.00  7.6236E+003
 885.25  7.3540E+003
 885.50  7.2276E+003
 885.75  7.1338E+003
 886.00  7.0006E+003
 886.25  6.8825E+003
 886.50  6.9169E+003
 886.75  7.0590E+003
 887.00  7.0648E+003
 887.25  7.0071E+003
 887.50  7.0386E+003
 887.75  7.0630E+003
 888.00  6.9861E+003
 888.25  6.8988E+003
 888.50  6.7316E+003
 888.75  6.5742E+003
 889.00  6.5095E+003
 889.25  6.4136E+003
 889.50  6.3655E+003
 889.75  6.3971E+003
 890.00  6.3499E+003
 890.25  6.2464E+003
 890.50  6.3251E+003
 890.75  6.4665E+003
 891.00  6.5955E+003
 891.25  6.7945E+003
 891.50  6.8534E+003
 891.75  6.8810E+003
 892.00  6.9131E+003
 892.25  6.9536E+003
 892.50  7.1657E+003
 892.75  7.4912E+003
 893.00  7.6902E+003
 893.25  7.8554E+003
 893.50  8.2953E+003
 893.75  8.9294E+003
 894.00  1.0144E+004
 894.25  1.1860E+004
 894.50  1.2824E+004
 894.75  1.2277E+004
 895.00  1.0872E+004
 895.25  9.3815E+003
 895.50  8.1924E+003
 895.75  7.4253E+003
 896.00  7.1369E+003
 896.25  7.0525E+003
 896.50  6.9524E+003
 896.75  6.9147E+003
 897.00  6.9689E+003
 897.25  7.0846E+003
 897.50  7.6813E+003
 897.75  9.3987E+003
 898.00  1.1940E+004
 898.25  1.3392E+004
 898.50  1.3016E+004
 898.75  1.1761E+004
 899.00  1.0448E+004
 899.25  9.2734E+003
 899.50  8.3301E+003
 899.75  7.5831E+003
 900.00  7.0628E+003
 900.25  6.6899E+003
 900.50  6.3737E+003
 900.75  6.2269E+003
 901.00  6.3012E+003
 901.25  6.5280E+003
 901.50  7.3040E+003
 901.75  8.9254E+003
 902.00  1.0087E+004
 902.25  9.6670E+003
 902.50  8.4555E+003
 902.75  7.4313E+003
 903.00  6.6805E+003
 903.25  6.1963E+003
 903.50  5.8390E+003
 903.75  5.4985E+003
 904.00  5.2755E+003
 904.25  5.2327E+003
 904.50  5.1677E+003
 904.75  5.0053E+003
 905.00  5.0442E+003
 905.25  5.1147E+003
 905.50  5.0874E+003
 905.75  5.0774E+003
 906.00  5.0940E+003
 906.25  5.0990E+003
 906.50  5.1165E+003
 906.75  5.1604E+003
 907.00  5.1571E+003
 907.25  4.9685E+003
 907.50  4.7376E+003
 907.75  4.5531E+003
 908.00  4.4438E+003
 908.25  4.4546E+003
 908.50  4.5642E+003
 908.75  4.6036E+003
 909.00  4.5281E+003
 909.25  4.4368E+003
 909.50  4.4792E+003
 909.75  4.5682E+003
 910.00  4.6356E+003
 910.25  4.7202E+003
 910.50  4.6947E+003
 910.75  4.5099E+003
 911.00  4.3632E+003
 911.25  4.2805E+003
 911.50  4.2397E+003
 911.75  4.1679E+003
 912.00  4.0844E+003
 912.25  4.0739E+003
 912.50  4.0828E+003
 912.75  4.0795E+003
 913.00  4.1025E+003
 913.25  4.1092E+003
 913.50  4.1031E+003
 913.75  4.1740E+003
 914.00  4.2574E+003
 914.25  4.2731E+003
 914.50  4.2910E+003
 914.75  4.3290E+003
 915.00  4.3303E+003
 915.25  4.2638E+003
 915.50  4.2419E+003
 915.75  4.2209E+003
 916.00  4.1236E+003
 916.25  4.0357E+003
 916.50  3.8930E+003
 916.75  3.8813E+003
 917.00  3.9347E+003
 917.25  3.9747E+003
 917.50  4.0234E+003
 917.75  4.0127E+003
 918.00  3.9987E+003
 918.25  4.0960E+003
 918.50  4.1037E+003
 918.75  4.0503E+003
 919.00  4.0179E+003
 919.25  3.9428E+003
 919.50  3.8207E+003
 919.75  3.7093E+003
 920.00  3.5694E+003
 920.25  3.5295E+003
 920.50  3.6130E+003
 920.75  3.7634E+003
 921.00  3.8382E+003
 921.25  3.8271E+003
 921.50  3.8035E+003
 921.75  3.8627E+003
 922.00  3.9290E+003
 922.25  3.8545E+003
 922.50  3.7713E+003
 922.75  3.6861E+003
 923.00  3.6044E+003
 923.25  3.5138E+003
 923.50  3.3970E+003
 923.75  3.4410E+003
 924.00  3.4868E+003
 924.25  3.4628E+003
 924.50  3.5343E+003
 924.75  3.7117E+003
 925.00  3.8224E+003
 925.25  3.8108E+003
 925.50  3.7112E+003
 925.75  3.6135E+003
 926.00  3.6214E+003
 926.25  3.6153E+003
 926.50  3.4886E+003
 926.75  3.3223E+003
 927.00  3.1729E+003
 927.25  3.1765E+003
 927.50  3.2487E+003
 927.75  3.2192E+003
 928.00  3.1446E+003
 928.25  3.1800E+003
 928.50  3.2685E+003
 928.75  3.3640E+003
 929.00  3.4350E+003
 929.25  3.4362E+003
 929.50  3.3878E+003
 929.75  3.2884E+003
 930.00  3.2592E+003
 930.25  3.2543E+003
 930.50  3.1843E+003
 930.75  3.1248E+003
 931.00  3.1270E+003
 931.25  2.9947E+003
 931.50  2.8275E+003
 931.75  2.7553E+003
 932.00  2.8025E+003
 932.25  2.9236E+003
 932.50  3.1825E+003
 932.75  3.4171E+003
 933.00  3.3668E+003
 933.25  3.2436E+003
 933.50  3.1266E+003
 933.75  2.9873E+003
 934.00  2.8375E+003
 934.25  2.7663E+003
 934.50  2.7376E+003
 934.75  2.6303E+003
 935.00  2.6165E+003
 935.25  2.6531E+003
 935.50  2.6476E+003
 935.75  2.6471E+003
 936.00  2.7386E+003
 936.25  2.8511E+003
 936.50  2.8800E+003
 936.75  2.7378E+003
 937.00  2.5885E+003
 937.25  2.6076E+003
 937.50  2.6268E+003
 937.75  2.5534E+003
 938.00  2.4952E+003
 938.25  2.4258E+003
 938.50  2.3296E+003
 938.75  2.3265E+003
 939.00  2.3367E+003
 939.25  2.3029E+003
 939.50  2.4318E+003
 939.75  2.5764E+003
 940.00  2.5772E+003
 940.25  2.6096E+003
 940.50  2.6723E+003
 940.75  2.5673E+003
 941.00  2.4475E+003
 941.25  2.4545E+003
 941.50  2.4673E+003
 941.75  2.4346E+003
 942.00  2.3793E+003
 942.25  2.4120E+003
 942.50  2.4554E+003
 942.75  2.4305E+003
 943.00  2.4126E+003
 943.25  2.4748E+003
 943.50  2.5709E+003
 943.75  2.6448E+003
 944.00  2.6876E+003
 944.25  2.6737E+003
 944.50  2.5973E+003
 944.75  2.5364E+003
 945.00  2.4863E+003
 945.25  2.4003E+003
 945.50  2.2101E+003
 945.75  2.0492E+003
 946.00  2.0453E+003
 946.25  2.0389E+003
 946.50  1.9337E+003
 946.75  1.9191E+003
 947.00  2.0739E+003
 947.25  2.3082E+003
 947.50  2.4932E+003
 947.75  2.4938E+003
 948.00  2.4838E+003
 948.25  2.4790E+003
 948.50  2.3370E+003
 948.75  2.2579E+003
 949.00  2.2032E+003
 949.25  2.1552E+003
 949.50  2.1592E+003
 949.75  2.1420E+003
 950.00  2.0259E+003
 950.25  1.9096E+003
 950.50  1.9607E+003
 950.75  2.2680E+003
 951.00  2.5317E+003
 951.25  2.5077E+003
 951.50  2.4384E+003
 951.75  2.4431E+003
 952.00  2.4643E+003
 952.25  2.3612E+003
 952.50  2.2625E+003
 952.75  2.1943E+003
 953.00  2.0854E+003
 953.25  1.9402E+003
 953.50  1.8941E+003
 953.75  1.9695E+003
 954.00  2.1481E+003
 954.25  2.3226E+003
 954.50  2.4546E+003
 954.75  2.4874E+003
 955.00  2.4113E+003
 955.25  2.3290E+003
 955.50  2.2022E+003
 955.75  2.1180E+003
 956.00  2.2118E+003
 956.25  2.3193E+003
 956.50  2.2994E+003
 956.75  2.2278E+003
 957.00  2.1883E+003
 957.25  2.2166E+003
 957.50  2.2067E+003
 957.75  2.1150E+003
 958.00  2.1695E+003
 958.25  2.2956E+003
 958.50  2.3362E+003
 958.75  2.3402E+003
 959.00  2.3795E+003
 959.25  2.3286E+003
 959.50  2.2620E+003
 959.75  2.3286E+003
 960.00  2.2688E+003
 960.25  2.0479E+003
 960.50  1.8649E+003
 960.75  1.7648E+003
 961.00  1.7629E+003
 961.25  1.8064E+003
 961.50  1.8982E+003
 961.75  2.1636E+003
 962.00  2.3633E+003
 962.25  2.3657E+003
 962.50  2.3486E+003
 962.75  2.4242E+003
 963.00  2.4291E+003
 963.25  2.3428E+003
 963.50  2.3248E+003
 963.75  2.2506E+003
 964.00  2.0944E+003
 964.25  2.0742E+003
 964.50  2.0725E+003
 964.75  2.0175E+003
 965.00  1.9732E+003
 965.25  2.0627E+003
 965.50  2.1727E+003
 965.75  2.2408E+003
 966.00  2.3246E+003
 966.25  2.3765E+003
 966.50  2.3743E+003
 966.75  2.3937E+003
 967.00  2.4302E+003
 967.25  2.3356E+003
 967.50  2.1179E+003
 967.75  1.9847E+003
 968.00  1.9318E+003
 968.25  1.9008E+003
 968.50  1.8760E+003
 968.75  1.8191E+003
 969.00  1.8496E+003
 969.25  1.9654E+003
 969.50  2.0431E+003
 969.75  2.1851E+003
 970.00  2.3622E+003
 970.25  2.4108E+003
 970.50  2.2048E+003
 970.75  1.9230E+003
 971.00  1.8391E+003
 971.25  1.7945E+003
 971.50  1.8494E+003
 971.75  1.9299E+003
 972.00  1.8323E+003
 972.25  1.7593E+003
 972.50  1.7695E+003
 972.75  1.8599E+003
 973.00  2.0234E+003
 973.25  2.1424E+003
 973.50  2.2051E+003
 973.75  2.2043E+003
 974.00  2.1521E+003
 974.25  2.0377E+003
 974.50  2.0166E+003
 974.75  2.0222E+003
 975.00  2.0078E+003
 975.25  1.9504E+003
 975.50  1.9040E+003
 975.75  1.8368E+003
 976.00  1.8172E+003
 976.25  1.9412E+003
 976.50  2.0758E+003
 976.75  2.1503E+003
 977.00  2.1765E+003
 977.25  2.2235E+003
 977.50  2.2577E+003
 977.75  2.1760E+003
 978.00  2.0579E+003
 978.25  1.9992E+003
 978.50  1.9207E+003
 978.75  1.8045E+003
 979.00  1.7138E+003
 979.25  1.7014E+003
 979.50  1.7304E+003
 979.75  1.6972E+003
 980.00  1.6770E+003
 980.25  1.8159E+003
 980.50  1.9761E+003
 980.75  2.0536E+003
 981.00  2.1259E+003
 981.25  2.1714E+003
 981.50  2.1393E+003
 981.75  2.1217E+003
 982.00  2.0301E+003
 982.25  1.8916E+003
 982.50  1.7437E+003
 982.75  1.6132E+003
 983.00  1.6324E+003
 983.25  1.6278E+003
 983.50  1.6531E+003
 983.75  1.7842E+003
 984.00  1.9163E+003
 984.25  2.0230E+003
 984.50  2.1371E+003
 984.75  2.2225E+003
 985.00  2.2571E+003
 985.25  2.1919E+003
 985.50  1.9966E+003
 985.75  1.7834E+003
 986.00  1.6777E+003
 986.25  1.6609E+003
 986.50  1.7791E+003
 986.75  1.8527E+003
 987.00  1.8240E+003
 987.25  1.7950E+003
 987.50  1.8171E+003
 987.75  2.0043E+003
 988.00  2.1178E+003
 988.25  1.9998E+003
 988.50  1.9723E+003
 988.75  2.0624E+003
 989.00  2.1163E+003
 989.25  2.1240E+003
 989.50  2.0455E+003
 989.75  1.8361E+003
 990.00  1.6828E+003
 990.25  1.6508E+003
 990.50  1.6926E+003
 990.75  1.7867E+003
 991.00  1.8589E+003
 991.25  1.8717E+003
 991.50  1.8490E+003
 991.75  1.8405E+003
 992.00  1.9236E+003
 992.25  1.9429E+003
 992.50  1.9052E+003
 992.75  1.9427E+003
 993.00  1.9507E+003
 993.25  1.9111E+003
 993.50  1.8796E+003
 993.75  1.8591E+003
 994.00  1.8562E+003
 994.25  1.8828E+003
 994.50  1.9478E+003
 994.75  1.8804E+003
 995.00  1.7682E+003
 995.25  1.9060E+003
 995.50  2.0735E+003
 995.75  2.0854E+003
 996.00  2.1778E+003
 996.25  2.1388E+003
 996.50  1.9657E+003
 996.75  1.9865E+003
 997.00  2.0009E+003
 997.25  1.8572E+003
 997.50  1.7084E+003
 997.75  1.6751E+003
 998.00  1.6352E+003
 998.25  1.6481E+003
 998.50  1.7243E+003
 998.75  1.8015E+003
 999.00  1.8508E+003
 999.25  1.8149E+003
 999.50  1.7831E+003
 999.75  1.9016E+003
1000.00  1.9830E+003
1000.25  1.8764E+003
1000.50  1.7417E+003
1000.75  1.7142E+003
1001.00  1.6389E+003
1001.25  1.5297E+003
1001.50  1.5111E+003
1001.75  1.5499E+003
1002.00  1.5912E+003
1002.25  1.7008E+003
1002.50  1.8453E+003
1002.75  1.8996E+003
1003.00  1.9433E+003
1003.25  2.0211E+003
1003.50  2.0554E+003
1003.75  2.0510E+003
1004.00  2.0009E+003
1004.25  1.8787E+003
1004.50  1.7645E+003
1004.75  1.7142E+003
1005.00  1.6391E+003
1005.25  1.5611E+003
1005.50  1.5855E+003
1005.75  1.5818E+003
1006.00  1.5603E+003
1006.25  1.7059E+003
1006.50  1.7712E+003
1006.75  1.6669E+003
1007.00  1.5982E+003
1007.25  1.6699E+003
1007.50  1.7158E+003
1007.75  1.5853E+003
